#  GeoPath WELLPLAN for Windows / Compass Survey Export
#  ====================================================
#
#
# $Wellbore_name: PR01
#
# $Well_name: PR01
# $Status_of_Well: EXISTING
#
# $Well_northing:       7623750.00 [m]
# $Well_easting:         185250.00 [m]
# $Derrick_elevation:         0.00 [m]
#
#===============================
#  AHD   Inclination   Azimuth
# $Units: [m]    [deg]    [deg]
#===============================
     0.00     0.00    74.20
  1400.00     0.00    74.20
  1410.00     1.00    74.20
  1440.00     4.00    74.20
  1470.00     7.00    74.20
  1500.00    10.00    74.20
  1530.00    13.00    74.20
  1560.00    16.00    74.20
  1590.00    19.00    74.20
  1620.00    22.00    74.20
  1650.00    25.00    74.20
  1680.00    28.00    74.20
  1710.00    31.00    74.20
  1740.00    34.00    74.20
  1770.00    37.00    74.20
  1800.00    40.00    74.20
  1830.00    43.00    74.20
  1860.00    46.00    74.20
  1890.00    49.00    74.20
  1920.00    52.00    74.20
  1930.00    53.00    74.20
  2000.48    53.00    74.20
  2010.00    54.43    74.20
  2040.00    58.93    74.21
  2070.00    63.43    74.21
  2100.00    67.93    74.22
  2130.00    72.43    74.23
  2160.00    76.93    74.23
  2190.00    81.43    74.24
  2206.58    83.92    74.24
  2701.36    83.92    74.24
  2730.00    84.04    78.56
  2760.00    84.20    83.08
  2790.00    84.40    87.60
  2820.00    84.63    92.11
  2850.00    84.90    96.62
  2880.00    85.20   101.13
  2910.00    85.53   105.63
  2940.00    85.88   110.13
  2970.00    86.26   114.62
  3000.00    86.66   119.11
  3025.98    87.03   123.00
  3035.98    87.03   123.00
  3060.00    87.02   123.80
  3090.00    87.02   124.80
  3120.00    87.01   125.80
  3150.00    87.01   126.81
  3180.00    87.00   127.81
  3210.00    87.00   128.81
  3240.00    87.00   129.81
  3270.00    87.00   130.81
  3300.00    87.00   131.81
  3330.00    87.00   132.81
  3360.00    87.00   133.82
  3390.00    87.00   134.82
  3420.00    87.01   135.82
  3450.00    87.01   136.82
  3480.00    87.02   137.82
  3510.00    87.03   138.82
  3540.00    87.03   139.82
  3563.70    87.04   140.61
  3747.24    87.04   140.61
