#  GeoPath WELLPLAN for Windows / Compass Survey Export
#  ====================================================
#
#
# $Wellbore_name: PR10
#
# $Well_name: PR10
# $Status_of_Well: EXISTING
#
# $Well_northing:       7621750.00 [m]
# $Well_easting:         187250.00 [m]
# $Derrick_elevation:         0.00 [m]
#
#===============================
#  AHD   Inclination   Azimuth
# $Units: [m]    [deg]    [deg]
#===============================
     0.00     0.00   152.87
   920.00     0.00   152.87
   930.00     1.00   152.87
   960.00     4.00   152.87
   990.00     7.00   152.87
  1020.00    10.00   152.87
  1050.00    13.00   152.87
  1080.00    16.00   152.87
  1110.00    19.00   152.87
  1140.00    22.00   152.87
  1170.00    25.00   152.87
  1200.00    28.00   152.87
  1230.00    31.00   152.87
  1260.00    34.00   152.87
  1290.00    37.00   152.87
  1320.00    40.00   152.87
  1350.00    43.00   152.87
  1380.00    46.00   152.87
  1410.00    49.00   152.87
  1440.00    52.00   152.87
  1450.23    53.02   152.87
  1915.21    53.02   152.87
  1920.00    52.66   153.76
  1950.00    50.54   159.55
  1980.00    48.72   165.66
  2010.00    47.25   172.09
  2040.00    46.15   178.80
  2070.00    45.46   185.71
  2100.00    45.19   192.73
  2130.00    45.35   199.77
  2160.00    45.94   206.71
  2190.00    46.94   213.48
  2220.00    48.33   219.98
  2250.00    50.06   226.18
  2280.00    52.11   232.04
  2310.00    54.43   237.57
  2340.00    56.99   242.77
  2370.00    59.75   247.67
  2400.00    62.69   252.29
  2430.00    65.76   256.66
  2460.00    68.96   260.83
  2490.00    72.26   264.82
  2520.00    75.63   268.66
  2550.00    79.06   272.39
  2580.00    82.54   276.03
  2610.00    86.04   279.61
  2638.61    89.40   283.00
  2639.61    89.40   283.00
  2640.00    89.40   283.01
  2670.00    89.40   284.01
  2700.00    89.40   285.01
  2730.00    89.39   286.01
  2760.00    89.39   287.01
  2790.00    89.39   288.01
  2820.00    89.39   289.01
  2850.00    89.39   290.01
  2880.00    89.39   291.01
  2910.00    89.39   292.01
  2940.00    89.39   293.01
  2970.00    89.39   294.01
  3000.00    89.39   295.01
  3030.00    89.39   296.01
  3060.00    89.39   297.01
  3090.00    89.39   298.01
  3120.00    89.39   299.01
  3150.00    89.39   300.01
  3180.00    89.39   301.01
  3210.00    89.39   302.01
  3240.00    89.39   303.01
  3270.00    89.39   304.01
  3300.00    89.39   305.01
  3330.00    89.40   306.01
  3339.69    89.40   306.34
  3485.73    89.40   306.34
