#  GeoPath WELLPLAN for Windows / Compass Survey Export
#  ====================================================
#
#
# $Wellbore_name: PR13
#
# $Well_name: PR13
# $Status_of_Well: EXISTING
#
# $Well_northing:       7621750.00 [m]
# $Well_easting:         187250.00 [m]
# $Derrick_elevation:         0.00 [m]
#
#===============================
#  AHD   Inclination   Azimuth
# $Units: [m]    [deg]    [deg]
#===============================
     0.00     0.00    50.00
   750.00     0.00    50.00
   780.00     3.00    50.00
   810.00     6.00    50.00
   840.00     9.00    50.00
   870.00    12.00    50.00
   900.00    15.00    50.00
   930.00    18.00    50.00
   960.00    21.00    50.00
   990.00    24.00    50.00
  1020.00    27.00    50.00
  1050.00    30.00    50.00
  1080.00    33.00    50.00
  1110.00    36.00    50.00
  1140.00    39.00    50.00
  1170.00    42.00    50.00
  1580.00    42.00    50.00
  1590.00    40.55    50.56
  1620.00    36.20    52.45
  1650.00    31.89    54.78
  1680.00    27.64    57.75
  1710.00    23.47    61.69
  1740.00    19.44    67.19
  1770.00    15.66    75.31
  1800.00    12.35    88.02
  1830.00     9.99   108.03
  1860.00     9.35   134.79
  1890.00    10.73   159.60
  1920.00    13.53   176.55
  1950.00    17.06   187.21
  1980.00    20.96   194.16
  2010.00    25.05   198.97
  2040.00    29.25   202.49
  2070.00    33.53   205.18
  2100.00    37.85   207.33
  2130.00    42.21   209.09
  2160.00    46.59   210.58
  2190.00    50.98   211.87
  2220.00    55.39   213.01
  2250.00    59.80   214.03
  2280.00    64.23   214.97
  2310.00    68.66   215.83
  2340.00    73.09   216.65
  2370.00    77.53   217.43
  2400.00    81.96   218.18
  2430.00    86.40   218.92
  2444.00    88.48   219.26
  2460.00    90.85   219.65
  2474.55    93.00   220.00
  2650.00    93.00   220.00
  2670.00    92.90   217.00
  2700.00    92.72   212.50
  2730.00    92.54   207.99
  2760.00    92.33   203.50
  2790.00    92.11   199.00
  2820.00    91.88   194.50
  2850.00    91.64   190.01
  2880.00    91.39   185.51
  2910.00    91.12   181.02
  2940.00    90.86   176.52
  2970.00    90.58   172.03
  3000.00    90.31   167.54
  3030.00    90.03   163.05
  3060.00    89.75   158.56
  3090.00    89.47   154.07
  3120.00    89.20   149.57
  3150.00    88.93   145.08
  3180.00    88.66   140.59
  3210.00    88.41   136.09
  3240.00    88.16   131.60
  3263.04    87.98   128.15
  3297.73    87.98   128.15
  3300.00    88.31   128.07
  3301.96    88.60   128.00
  3306.96    88.60   128.00
  3330.00    88.60   127.23
  3360.00    88.59   126.23
  3390.00    88.59   125.23
  3420.00    88.59   124.23
  3450.00    88.58   123.23
  3480.00    88.58   122.23
  3510.00    88.58   121.23
  3540.00    88.58   120.23
  3570.00    88.58   119.23
  3600.00    88.58   118.23
  3630.00    88.58   117.23
  3660.00    88.58   116.23
  3690.00    88.58   115.23
  3720.00    88.58   114.23
  3750.00    88.58   113.23
  3780.00    88.58   112.23
  3810.00    88.58   111.23
  3840.00    88.59   110.23
  3870.00    88.59   109.23
  3891.48    88.59   108.51
  4157.46    88.59   108.51
